# Rest Wavelength (angstroms) using z=0.016561, Observed Flux, pPXF Best-fit Model
     8416.02740         1.00746         0.99716
     8417.06555         1.02345         0.99562
     8418.10384         0.98338         0.99403
     8419.14225         1.00906         0.99241
     8420.18078         1.01434         0.99078
     8421.21945         1.00918         0.98912
     8422.25824         1.01892         0.98744
     8423.29717         1.02098         0.98574
     8424.33622         1.00032         0.98404
     8425.37540         0.97358         0.98236
     8426.41470         0.98421         0.98073
     8427.45414         1.00059         0.97918
     8428.49370         0.99698         0.97772
     8429.53339         0.99137         0.97634
     8430.57321         0.98876         0.97501
     8431.61316         0.97998         0.97369
     8432.65324         0.97852         0.97234
     8433.69344         0.97136         0.97091
     8434.73378         0.96897         0.96939
     8435.77424         0.97262         0.96781
     8436.81483         0.96963         0.96621
     8437.85554         0.95906         0.96468
     8438.89639         0.95662         0.96330
     8439.93737         0.94981         0.96218
     8440.97847         0.96080         0.96137
     8442.01970         0.98485         0.96092
     8443.06106         0.97620         0.96080
     8444.10255         0.95468         0.96096
     8445.14417         0.94679         0.96134
     8446.18591         0.94605         0.96185
     8447.22779         0.95041         0.96241
     8448.26979         0.95423         0.96295
     8449.31192         0.95379         0.96342
     8450.35418         0.96421         0.96381
     8451.39657         0.96966         0.96412
     8452.43908         0.95729         0.96435
     8453.48173         0.95060         0.96452
     8454.52450         0.95380         0.96464
     8455.56741         0.96357         0.96473
     8456.61044         0.99565         0.96478
     8457.65360         0.98479         0.96479
     8458.69689         0.96920         0.96476
     8459.74030         0.97026         0.96467
     8460.78385         0.93905         0.96451
     8461.82752         0.94514         0.96426
     8462.87133         0.95873         0.96392
     8463.91526         0.96948         0.96347
     8464.95932         0.95075         0.96294
     8466.00351         0.95433         0.96234
     8467.04783         0.93855         0.96172
     8468.09228         0.93606         0.96114
     8469.13685         0.96810         0.96070
     8470.18156         0.93946         0.96045
     8471.22639         0.96300         0.96049
     8472.27135         0.98134         0.96086
     8473.31645         0.99121         0.96158
     8474.36167         0.94916         0.96262
     8475.40702         0.94672         0.96391
     8476.45249         0.95446         0.96535
     8477.49810         0.95711         0.96683
     8478.54384         0.95598         0.96821
     8479.58970         0.94624         0.96938
     8480.63570         0.93002         0.97025
     8481.68182         0.94216         0.97075
     8482.72808         0.96042         0.97088
     8483.77446         0.95822         0.97062
     8484.82097         0.95216         0.97001
     8485.86761         0.96414         0.96909
     8486.91438         0.95816         0.96788
     8487.96127         0.95416         0.96639
     8489.00830         0.96352         0.96458
     8490.05546         0.95490         0.96242
     8491.10274         0.96739         0.95981
     8492.15016         0.95732         0.95667
     8493.19770         0.94406         0.95295
     8494.24538         0.94436         0.94863
     8495.29318         0.95332         0.94378
     8496.34111         0.93892         0.93857
     8497.38917         0.92635         0.93325
     8498.43736         0.93273         0.92816
     8499.48568         0.93204         0.92369
     8500.53413         0.93247         0.92021
     8501.58271         0.95088         0.91804
     8502.63141         0.94616         0.91737
     8503.68025         0.95396         0.91827
     8504.72922         0.95354         0.92063
     8505.77831         0.92815         0.92421
     8506.82754         0.91835         0.92864
     8507.87689         0.92194         0.93353
     8508.92638         0.93521         0.93846
     8509.97599         0.95625         0.94310
     8511.02573         0.96235         0.94719
     8512.07560         0.96672         0.95060
     8513.12561         0.96384         0.95332
     8514.17574         0.96095         0.95543
     8515.22600         0.96877         0.95707
     8516.27639         0.97131         0.95843
     8517.32691         0.97373         0.95967
     8518.37756         0.98461         0.96090
     8519.42834         0.98840         0.96220
     8520.47925         0.96776         0.96355
     8521.53028         0.96036         0.96487
     8522.58145         0.96482         0.96604
     8523.63275         0.95051         0.96690
     8524.68418         0.94274         0.96730
     8525.73573         0.96247         0.96708
     8526.78742         0.99507         0.96615
     8527.83924         0.99006         0.96443
     8528.89118         0.94928         0.96191
     8529.94326         0.93447         0.95858
     8530.99547         0.93859         0.95446
     8532.04780         0.95213         0.94954
     8533.10027         0.96565         0.94380
     8534.15286         0.94463         0.93720
     8535.20559         0.92119         0.92969
     8536.25844         0.93326         0.92122
     8537.31143         0.93972         0.91181
     8538.36454         0.92652         0.90157
     8539.41779         0.91513         0.89074
     8540.47116         0.87635         0.87971
     8541.52467         0.86989         0.86899
     8542.57830         0.86832         0.85923
     8543.63206         0.83033         0.85107
     8544.68596         0.82415         0.84515
     8545.73998         0.85214         0.84196
     8546.79414         0.84214         0.84178
     8547.84842         0.82836         0.84466
     8548.90284         0.86425         0.85040
     8549.95738         0.86621         0.85856
     8551.01206         0.87410         0.86857
     8552.06686         0.88391         0.87975
     8553.12180         0.89814         0.89146
     8554.17686         0.91665         0.90313
     8555.23206         0.91369         0.91433
     8556.28738         0.92059         0.92480
     8557.34284         0.93321         0.93441
     8558.39842         0.93218         0.94316
     8559.45414         0.93193         0.95112
     8560.50999         0.94942         0.95840
     8561.56596         0.98351         0.96511
     8562.62207         0.98258         0.97132
     8563.67830         0.98799         0.97708
     8564.73467         0.98439         0.98240
     8565.79117         0.97868         0.98724
     8566.84780         0.99099         0.99158
     8567.90456         0.98575         0.99538
     8568.96144         0.99122         0.99865
     8570.01846         1.01197         1.00138
     8571.07561         1.01147         1.00361
     8572.13289         0.99499         1.00539
     8573.19030         0.98853         1.00678
     8574.24784         1.01214         1.00786
     8575.30551         1.02468         1.00869
     8576.36332         0.99944         1.00933
     8577.42125         0.99957         1.00982
     8578.47931         1.00775         1.01019
     8579.53750         1.02180         1.01047
     8580.59583         0.99338         1.01067
     8581.65428         0.97722         1.01082
     8582.71286         0.99338         1.01094
     8583.77158         1.00143         1.01106
     8584.83043         0.97785         1.01119
     8585.88940         1.00155         1.01137
     8586.94851         1.00526         1.01159
     8588.00775         1.00540         1.01186
     8589.06712         1.01706         1.01216
     8590.12661         1.02987         1.01247
     8591.18624         1.02575         1.01274
     8592.24600         1.02531         1.01296
     8593.30590         1.02296         1.01309
     8594.36592         1.00484         1.01312
     8595.42607         1.02037         1.01308
     8596.48635         1.00068         1.01298
     8597.54677         1.01028         1.01290
     8598.60731         1.02055         1.01286
     8599.66799         1.00990         1.01294
     8600.72880         1.00155         1.01317
     8601.78973         1.02669         1.01357
     8602.85080         1.03171         1.01413
     8603.91200         1.04992         1.01484
     8604.97333         1.03624         1.01563
     8606.03479         1.02008         1.01645
     8607.09638         1.00941         1.01726
     8608.15811         1.01836         1.01799
     8609.21996         1.00401         1.01863
     8610.28195         1.02072         1.01919
     8611.34406         1.04738         1.01969
     8612.40631         1.02236         1.02019
     8613.46869         1.01440         1.02073
     8614.53120         1.00859         1.02137
     8615.59384         1.02451         1.02215
     8616.65661         1.04477         1.02308
     8617.71951         1.02465         1.02416
     8618.78254         0.98848         1.02536
     8619.84571         1.00907         1.02663
     8620.90900         1.00419         1.02792
     8621.97243         1.00401         1.02919
     8623.03599         1.02972         1.03042
     8624.09968         1.06904         1.03157
     8625.16350         1.06385         1.03265
     8626.22745         1.03731         1.03366
     8627.29153         1.05003         1.03460
     8628.35575         1.04295         1.03546
     8629.42009         1.01138         1.03623
     8630.48457         1.00627         1.03688
     8631.54918         1.05037         1.03741
     8632.61392         1.02233         1.03780
     8633.67879         1.03904         1.03803
     8634.74379         1.03414         1.03810
     8635.80892         1.03415         1.03803
     8636.87419         1.04135         1.03784
     8637.93958         1.02442         1.03753
     8639.00511         1.04188         1.03709
     8640.07077         1.01470         1.03651
     8641.13656         1.03200         1.03574
     8642.20248         1.05960         1.03472
     8643.26854         1.04820         1.03336
     8644.33472         1.03748         1.03161
     8645.40104         1.03628         1.02940
     8646.46749         1.06653         1.02668
     8647.53407         1.03995         1.02346
     8648.60078         1.00307         1.01975
     8649.66762         1.01378         1.01558
     8650.73459         1.02403         1.01099
     8651.80170         1.01964         1.00601
     8652.86894         0.99161         1.00060
     8653.93631         0.98327         0.99473
     8655.00381         0.95573         0.98831
     8656.07144         0.95652         0.98123
     8657.13921         0.97175         0.97341
     8658.20710         0.95720         0.96484
     8659.27513         0.94523         0.95563
     8660.34329         0.94061         0.94601
     8661.41158         0.92713         0.93637
     8662.48000         0.91881         0.92723
     8663.54856         0.92392         0.91917
     8664.61724         0.89666         0.91277
     8665.68606         0.89400         0.90855
     8666.75501         0.90138         0.90681
     8667.82410         0.89155         0.90768
     8668.89331         0.89144         0.91101
     8669.96266         0.91935         0.91646
     8671.03213         0.91615         0.92349
     8672.10174         0.91056         0.93151
     8673.17148         0.93914         0.93995
     8674.24136         0.96774         0.94828
     8675.31136         0.96147         0.95616
     8676.38150         0.95749         0.96338
     8677.45177         0.96362         0.96988
     8678.52217         0.96806         0.97571
     8679.59271         0.98174         0.98097
     8680.66337         0.96982         0.98580
     8681.73417         0.97033         0.99027
     8682.80510         1.00000         0.99443
     8683.87616         1.00371         0.99830
     8684.94736         0.99732         1.00183
     8686.01868         1.00362         1.00499
     8687.09014         1.01367         1.00777
     8688.16173         1.01102         1.01018
     8689.23345         1.01234         1.01228
     8690.30531         1.00833         1.01416
     8691.37730         1.01150         1.01594
     8692.44942         1.00924         1.01773
     8693.52167         1.00147         1.01960
     8694.59405         1.01714         1.02162
     8695.66657         1.04099         1.02379
     8696.73922         1.04885         1.02605
     8697.81200         1.05979         1.02833
     8698.88491         1.04752         1.03053
     8699.95796         1.02857         1.03258
     8701.03113         1.03873         1.03439
     8702.10444         1.04240         1.03591
     8703.17789         1.04034         1.03715
     8704.25146         1.04218         1.03810
     8705.32517         1.02211         1.03881
     8706.39901         1.02426         1.03930
     8707.47298         1.04037         1.03962
     8708.54709         1.03068         1.03980
     8709.62132         1.05192         1.03986
     8710.69569         1.04340         1.03984
     8711.77020         1.04668         1.03976
     8712.84483         1.06900         1.03964
     8713.91960         1.05568         1.03951
     8714.99450         1.05548         1.03942
     8716.06953         1.04626         1.03939
     8717.14470         1.02683         1.03946
     8718.22000         1.04830         1.03965
     8719.29543         1.04169         1.03996
     8720.37099         1.03341         1.04038
     8721.44669         1.03980         1.04089
     8722.52251         1.03655         1.04143
     8723.59848         1.04489         1.04198
     8724.67457         1.03797         1.04248
     8725.75080         1.02275         1.04289
     8726.82716         1.03807         1.04319
     8727.90365         1.05372         1.04335
     8728.98027         1.05716         1.04337
     8730.05703         1.06404         1.04325
     8731.13392         1.06003         1.04300
     8732.21095         1.04257         1.04263
     8733.28810         1.05807         1.04216
     8734.36539         1.05468         1.04161
     8735.44281         1.04368         1.04098
     8736.52037         1.04394         1.04031
     8737.59806         1.04468         1.03962
     8738.67588         1.03850         1.03893
     8739.75383         1.06295         1.03828
     8740.83192         1.05413         1.03771
     8741.91014         1.04493         1.03724
     8742.98849         1.01723         1.03689
     8744.06698         1.01106         1.03666
     8745.14560         1.01009         1.03655
     8746.22435         1.03445         1.03654
     8747.30323         1.02139         1.03659
     8748.38225         1.01524         1.03668
     8749.46140         1.04838         1.03679
     8750.54069         1.04684         1.03690
     8751.62010         1.03623         1.03700
     8752.69966         1.04905         1.03711
     8753.77934         1.03257         1.03724
     8754.85916         1.02731         1.03742
     8755.93911         1.03550         1.03766
     8757.01919         1.03254         1.03799
     8758.09941         1.03849         1.03840
     8759.17976         1.04683         1.03889
     8760.26024         1.05074         1.03942
     8761.34086         1.05657         1.03997
     8762.42161         1.05860         1.04050
     8763.50249         1.05305         1.04098
     8764.58350         1.04330         1.04138
     8765.66465         1.04288         1.04169
     8766.74594         1.04221         1.04190
     8767.82735         1.03425         1.04201
     8768.90890         1.01094         1.04203
     8769.99059         1.00884         1.04199
     8771.07240         1.02089         1.04192
     8772.15435         1.04684         1.04183
     8773.23644         1.06584         1.04177
     8774.31866         1.06706         1.04175
     8775.40101         1.04093         1.04181
     8776.48349         1.02083         1.04197
     8777.56611         1.03772         1.04224
     8778.64886         1.05006         1.04263
     8779.73174         1.02548         1.04313
     8780.81476         1.04384         1.04373
     8781.89791         1.05464         1.04440
     8782.98120         1.02669         1.04509
     8784.06462         1.03414         1.04578
     8785.14817         1.06455         1.04640
     8786.23186         1.05003         1.04692
     8787.31568         1.05714         1.04729
     8788.39963         1.05369         1.04748
     8789.48372         1.05522         1.04746
